<Bundle xmlns="http://hl7.org/fhir">
    <id value="CPIS-CPP-Bundle-Example" />
    <type value="collection" />
    <entry>
        <resource>
            <Flag>
                <id value="CPIS-CPP-Bundle-Example" />
                <meta>
                    <profile value="https://fhir.nhs.uk/England/StructureDefinition/England-Flag-PatientFlag" />
                </meta>
                <status value="active" />
                <code>
                    <coding>
                        <system value="https://fhir.nhs.uk/England/CodeSystem/England-FlagCategoryPatient" />
                        <code value="child-protection-information-system-flag" />
                        <display value="Child Protection Information System Flag" />
                    </coding>
                </code>
                <subject>
                    <reference value="Patient/9449306257" />
                    <display value="CHARLOTTE BRESSINGTON" />
                </subject>
                <period>
                    <start value="2024-07-22T09:00:00+00:00" />
                    <end value="2024-12-30T09:00:00+00:00" />
                </period>
                <extension url="http://hl7.org/fhir/StructureDefinition/flag-detail">
                    <valueReference>
                        <reference value="CarePlan/CPP-062572" />
                        <display value="Child Protection Plan for CHARLOTTE BRESSINGTON" />
                    </valueReference>
                </extension>
            </Flag>
        </resource>
    </entry>
    <entry>
        <fullUrl value="urn:uuid:CPP-062572"/>
        <resource>
            <CarePlan>
                <id value="CPP-062572" />
                <meta>
                    <profile value="https://fhir.nhs.uk/England/StructureDefinition/England-CarePlan-Flag" />
                </meta>
                <status value="active" />
                <intent value="plan" />
                <category>
                    <coding>
                        <system value="http://snomed.info/sct" />
                        <code value="342191000000101" />
                        <display value="Subject to child protection plan" />
                    </coding>
                </category>
                <subject>
                    <reference value="Patient/9449306257" />
                    <display value="CHARLOTTE BRESSINGTON" />
                </subject>
                <period>
                    <start value="2024-07-22T09:00:00+00:00" />
                    <end value="2024-12-30T09:00:00+00:00" />
                </period>
                <careTeam>
                    <reference value="CareTeam/SFD1" />
                    <display value="SFD1 - SHEFFIELD CITY COUNCIL" />
                </careTeam>
            </CarePlan>
        </resource>
    </entry>
    <entry>
        <fullUrl value="urn:uuid:SFD1"/>
        <resource>
            <CareTeam>
                <id value="SFD1" />
                <meta>
                    <profile value="https://fhir.nhs.uk/England/StructureDefinition/England-CareTeam-Flag" />
                </meta>
                <status value="active" />
                <name value="SFD1 - SHEFFIELD CITY COUNCIL" />
                <telecom>
                    <system value="phone" />
                    <value value="01133973581" />
                    <use value="work" />
                </telecom>
                <telecom>
                    <system value="phone" />
                    <value value="07133973581" />
                    <use value="mobile" />
                </telecom>
            </CareTeam>
        </resource>
    </entry>
</Bundle>
