{
    "resourceType": "Bundle",
    "id": "be07104a-629c-4e17-adee-a59d1d79b13d",
    "meta": {
      "versionId": "1",
      "lastUpdated": "2023-12-19T09:49:21.356+00:00",
      "source": "#Ez7T38DI19Tbti28",
      "profile": [
        "https://fhir.hl7.org.uk/StructureDefinition/UKCore-Bundle"
      ]
    },
    "identifier": {
      "system": "http://Y8J7D-pathlab001.com/report",
      "value": "REP-20220308-008902"
    },
    "type": "document",
    "timestamp": "2023-12-19T09:49:21.343081+00:00",
    "entry": [
      {
        "fullUrl": "urn:uuid:138ffee6-fbc1-49e2-bfbc-e14b777ab62a",
        "resource": {
          "resourceType": "Composition",
          "meta": {
            "profile": [
              "https://fhir.hl7.org.uk/StructureDefinition/UKCore-Composition"
            ]
          },
          "identifier": {
            "system": "http://Y8J7D-pathlab001.com/report",
            "value": "REP-20220308-008902"
          },
          "status": "final",
          "type": {
            "coding": [
              {
                "system": "http://snomed.info/sct",
                "code": "4241000179101",
                "display": "Laboratory report"
              }
            ],
            "text": "Laboratory report"
          },
          "category": [
            {
              "coding": [
                {
                  "system": "http://snomed.info/sct",
                  "code": "371525003",
                  "display": "Clinical procedure report"
                }
              ]
            }
          ],
          "subject": {
            "reference": "urn:uuid:ab87a3f8-1d37-44a9-804e-5e962598a6e4"
          },
          "date": "2022-03-30T11:24:26+01:00",
          "author": [
            {
              "reference": "urn:uuid:9a835acf-d715-4d84-8dcf-a8435f6417fe"
            }
          ],
          "title": "Laboratory report",
          "attester": [
            {
              "mode": "professional",
              "party": {
                "reference": "urn:uuid:9a835acf-d715-4d84-8dcf-a8435f6417fe"
              }
            },
            {
              "mode": "legal",
              "time": "2022-03-25T11:00:00+01:00",
              "party": {
                "reference": "urn:uuid:9a835acf-d715-4d84-8dcf-a8435f6417fe"
              }
            }
          ],
          "custodian": {
            "reference": "urn:uuid:3c43b5b3-06d6-445f-ae9a-48d5f05df434"
          },
          "section": [
            {
              "title": "Laboratory examinations",
              "code": {
                "coding": [
                  {
                    "system": "https://fhir.hl7.org.uk/CodeSystem/UKCore-RecordStandardHeadings",
                    "code": "test-result",
                    "display": "Test result"
                  }
                ]
              },
              "section": [
                {
                  "title": "Liver functions tests",
                  "code": {
                    "coding": [
                      {
                        "system": "http://snomed.info/sct",
                        "code": "26958001",
                        "display": "Hepatic function panel"
                      }
                    ]
                  },
                  "entry": [
                    {
                      "reference": "urn:uuid:33a88119-6dbc-4bdf-809a-c1d822b74e90"
                    }
                  ]
                },
                {
                  "title": "Urea and electrolytes",
                  "code": {
                    "coding": [
                      {
                        "system": "http://snomed.info/sct",
                        "code": "26958001",
                        "display": "Hepatic function panel"
                      }
                    ]
                  },
                  "entry": [
                    {
                      "reference": "urn:uuid:a5c7f5e2-eb95-469b-b588-f7861c260ccb"
                    }
                  ]
                }
              ]
            }
          ]
        }
      },
      {
        "fullUrl": "urn:uuid:35d46ca1-f253-4c97-b7ee-fb5fccdf6c20",
        "resource": {
          "resourceType": "DiagnosticReport",
          "id": "35d46ca1-f253-4c97-b7ee-fb5fccdf6c20",
          "meta": {
            "versionId": "1",
            "lastUpdated": "2023-12-19T09:49:20.671+00:00",
            "source": "#plpDJqc8XDrSmdQh",
            "profile": [
              "https://fhir.hl7.org.uk/StructureDefinition/UKCore-DiagnosticReport"
            ]
          },
          "text": {
            "status": "generated",
            "div": "<div xmlns=\"http://www.w3.org/1999/xhtml\"><div class=\"hapiHeaderText\"> Diagnostic studies report </div><table class=\"hapiPropertyTable\"><tbody><tr><td>Status</td><td>FINAL</td></tr><tr><td>Issued</td><td> 08 March 2022 14:23:00 </td></tr></tbody></table><table class=\"hapiTableOfValues\"><thead><tr><td>Name</td><td>Value</td><td>Interpretation</td><td>Reference Range</td><td>Status</td></tr></thead><tbody><tr class=\"hapiTableOfValuesRowOdd\"><td> Hepatic function panel </td><td/><td/><td/><td>FINAL</td></tr><tr class=\"hapiTableOfValuesRowEven\"><td> Hepatic function panel </td><td/><td/><td/><td>FINAL</td></tr></tbody></table></div>"
          },
          "identifier": [
            {
              "system": "http://Y8J7D-pathlab001.com/report",
              "value": "REP-20220308-008902"
            }
          ],
          "basedOn": [
            {
              "reference": "urn:uuid:1c38d507-9ad7-4b49-ba91-7da204842cac",
              "type": "http://hl7.org/fhir/StructureDefinition/UKCore-ServiceRequest"
            },
            {
              "reference": "urn:uuid:8660ef6a-65ef-408f-92ce-b4d6d03d783c",
              "type": "http://hl7.org/fhir/StructureDefinition/UKCore-ServiceRequest"
            }
          ],
          "status": "final",
          "code": {
            "coding": [
              {
                "system": "http://snomed.info/sct",
                "code": "721981007",
                "display": "Diagnostic studies report"
              }
            ]
          },
          "subject": {
            "reference": "urn:uuid:ab87a3f8-1d37-44a9-804e-5e962598a6e4",
            "display": "WELSH, Joel"
          },
          "issued": "2022-03-08T14:23:00+00:00",
          "performer": [
            {
              "reference": "Organization/8a6d85b8-9837-4fed-a257-4cf207988338",
              "display": "TD008362 PATH LAB 001"
            }
          ],
          "specimen": [
            {
              "reference": "urn:uuid:bab0eaec-1ec5-4598-b660-90bb38a1030d"
            }
          ],
          "result": [
            {
              "reference": "urn:uuid:33a88119-6dbc-4bdf-809a-c1d822b74e90"
            },
            {
              "reference": "urn:uuid:a5c7f5e2-eb95-469b-b588-f7861c260ccb"
            }
          ]
        }
      },
      {
        "fullUrl": "urn:uuid:ab87a3f8-1d37-44a9-804e-5e962598a6e4",
        "resource": {
          "resourceType": "Patient",
          "id": "ab87a3f8-1d37-44a9-804e-5e962598a6e4",
          "meta": {
            "versionId": "2",
            "lastUpdated": "2023-12-19T09:49:20.671+00:00",
            "source": "#plpDJqc8XDrSmdQh",
            "profile": [
              "https://fhir.hl7.org.uk/StructureDefinition/UKCore-Patient"
            ]
          },
          "text": {
            "status": "generated",
            "div": "<div xmlns=\"http://www.w3.org/1999/xhtml\"><div class=\"hapiHeaderText\">Joel <b>WELSH </b></div><table class=\"hapiPropertyTable\"><tbody><tr><td>Identifier</td><td>9727710638</td></tr><tr><td>Address</td><td><span>ACONBURY </span><br/><span>LARPOOL DRIVE </span><br/></td></tr><tr><td>Date of birth</td><td><span>23 August 1972</span></td></tr></tbody></table></div>"
          },
          "identifier": [
            {
              "system": "https://fhir.nhs.uk/Id/nhs-number",
              "value": "9727710638"
            }
          ],
          "name": [
            {
              "use": "official",
              "family": "WELSH",
              "given": [
                "Joel"
              ]
            }
          ],
          "gender": "male",
          "birthDate": "1972-08-23",
          "address": [
            {
              "line": [
                "ACONBURY",
                "LARPOOL DRIVE"
              ],
              "district": "NORTH YORKSHIRE",
              "postalCode": "YO22 4ND"
            }
          ]
        }
      },
      {
        "fullUrl": "urn:uuid:1c38d507-9ad7-4b49-ba91-7da204842cac",
        "resource": {
          "resourceType": "ServiceRequest",
          "id": "1c38d507-9ad7-4b49-ba91-7da204842cac",
          "meta": {
            "versionId": "1",
            "lastUpdated": "2023-12-19T09:49:11.150+00:00",
            "source": "#kL2ttwrU2JhyLb87",
            "profile": [
              "https://fhir.hl7.org.uk/StructureDefinition/UKCore-ServiceRequest"
            ]
          },
          "identifier": [
            {
              "system": "http://B82033-pickeringmedicalpractice.com/labrequest",
              "value": "REQ-20220307-000046-001"
            }
          ],
          "requisition": {
            "system": "http://B82033-pickeringmedicalpractice.com/labrequest",
            "value": "REQ-20220307-000046"
          },
          "status": "active",
          "intent": "order",
          "code": {
            "coding": [
              {
                "system": "http://snomed.info/sct",
                "code": "26958001",
                "display": "Hepatic function panel"
              }
            ]
          },
          "subject": {
            "reference": "urn:uuid:ab87a3f8-1d37-44a9-804e-5e962598a6e4",
            "display": "WELSH, Joel"
          },
          "authoredOn": "2022-03-07T09:48:00+00:00",
          "requester": {
            "reference": "urn:uuid:9a835acf-d715-4d84-8dcf-a8435f6417fe",
            "display": "GASKELL, Gale"
          },
          "performer": [
            {
              "reference": "Organization/8a6d85b8-9837-4fed-a257-4cf207988338",
              "display": "TD008362 PATH LAB 001"
            }
          ]
        }
      },
      {
        "fullUrl": "urn:uuid:8660ef6a-65ef-408f-92ce-b4d6d03d783c",
        "resource": {
          "resourceType": "ServiceRequest",
          "id": "8660ef6a-65ef-408f-92ce-b4d6d03d783c",
          "meta": {
            "versionId": "1",
            "lastUpdated": "2023-12-19T09:49:11.150+00:00",
            "source": "#kL2ttwrU2JhyLb87",
            "profile": [
              "https://fhir.hl7.org.uk/StructureDefinition/UKCore-ServiceRequest"
            ]
          },
          "identifier": [
            {
              "system": "http://B82033-pickeringmedicalpractice.com/labrequest",
              "value": "REQ-20220307-000046-002"
            }
          ],
          "requisition": {
            "system": "http://B82033-pickeringmedicalpractice.com/labrequest",
            "value": "REQ-20220307-000046"
          },
          "status": "active",
          "intent": "order",
          "code": {
            "coding": [
              {
                "system": "http://snomed.info/sct",
                "code": "252167001",
                "display": "Urea and electrolytes"
              }
            ]
          },
          "subject": {
            "reference": "urn:uuid:ab87a3f8-1d37-44a9-804e-5e962598a6e4",
            "display": "WELSH, Joel"
          },
          "authoredOn": "2022-03-07T09:48:00+00:00",
          "requester": {
            "reference": "urn:uuid:9a835acf-d715-4d84-8dcf-a8435f6417fe",
            "display": "GASKELL, Gale"
          },
          "performer": [
            {
              "reference": "Organization/8a6d85b8-9837-4fed-a257-4cf207988338",
              "display": "TD008362 PATH LAB 001"
            }
          ]
        }
      },
      {
        "fullUrl": "urn:uuid:bab0eaec-1ec5-4598-b660-90bb38a1030d",
        "resource": {
          "resourceType": "Specimen",
          "id": "bab0eaec-1ec5-4598-b660-90bb38a1030d",
          "meta": {
            "versionId": "1",
            "lastUpdated": "2023-12-19T09:49:20.671+00:00",
            "source": "#plpDJqc8XDrSmdQh",
            "profile": [
              "https://fhir.hl7.org.uk/StructureDefinition/UKCore-Specimen"
            ]
          },
          "identifier": [
            {
              "system": "http://B82033-pickeringmedicalpractice.com/specimen",
              "value": "SPC-REQ-20220307-000014"
            }
          ],
          "accessionIdentifier": {
            "system": "http://Y8J7D-pathlab001.com/specimen",
            "value": "SPC-LAB-20220307-007856"
          },
          "status": "available",
          "type": {
            "coding": [
              {
                "system": "http://snomed.info/sct",
                "code": "122555007",
                "display": "Venous blood specimen"
              }
            ]
          },
          "subject": {
            "reference": "urn:uuid:ab87a3f8-1d37-44a9-804e-5e962598a6e4",
            "display": "WELSH, Joel"
          },
          "receivedTime": "2022-03-07T14:54:00+00:00",
          "request": [
            {
              "reference": "urn:uuid:8660ef6a-65ef-408f-92ce-b4d6d03d783c"
            }
          ],
          "collection": {
            "collectedDateTime": "2022-03-07T10:02:00+00:00"
          }
        }
      },
      {
        "fullUrl": "urn:uuid:33a88119-6dbc-4bdf-809a-c1d822b74e90",
        "resource": {
          "resourceType": "Observation",
          "id": "33a88119-6dbc-4bdf-809a-c1d822b74e90",
          "meta": {
            "versionId": "1",
            "lastUpdated": "2023-12-19T09:49:20.671+00:00",
            "source": "#plpDJqc8XDrSmdQh",
            "profile": [
              "https://fhir.hl7.org.uk/StructureDefinition/UKCore-Observation"
            ]
          },
          "identifier": [
            {
              "system": "https://tools.ietf.org/html/rfc4122",
              "value": "9920b5d3-9f19-41df-8d5a-fd2d4288e305"
            }
          ],
          "status": "final",
          "code": {
            "coding": [
              {
                "system": "http://snomed.info/sct",
                "code": "26958001",
                "display": "Hepatic function panel"
              }
            ]
          },
          "subject": {
            "reference": "urn:uuid:ab87a3f8-1d37-44a9-804e-5e962598a6e4",
            "display": "WELSH, Joel"
          },
          "issued": "2022-03-08T14:23:00+00:00",
          "performer": [
            {
              "reference": "Organization/8a6d85b8-9837-4fed-a257-4cf207988338",
              "display": "TD008362 PATH LAB 001"
            }
          ],
          "hasMember": [
            {
              "reference": "urn:uuid:47faffbf-34c0-45b2-9c65-285f89fd1521"
            },
            {
              "reference": "urn:uuid:aa8aa37b-3a69-478f-a2be-947af624d7cb"
            },
            {
              "reference": "urn:uuid:3f98327b-f215-4bc5-bd52-ed6477a3da4a"
            }
          ]
        }
      },
      {
        "fullUrl": "urn:uuid:47faffbf-34c0-45b2-9c65-285f89fd1521",
        "resource": {
          "resourceType": "Observation",
          "id": "47faffbf-34c0-45b2-9c65-285f89fd1521",
          "meta": {
            "versionId": "1",
            "lastUpdated": "2023-12-19T09:49:20.671+00:00",
            "source": "#plpDJqc8XDrSmdQh",
            "profile": [
              "https://fhir.hl7.org.uk/StructureDefinition/UKCore-Observation"
            ]
          },
          "identifier": [
            {
              "system": "https://tools.ietf.org/html/rfc4122",
              "value": "a26ada79-ac32-4ff8-a3e4-fb5950462271"
            }
          ],
          "status": "final",
          "code": {
            "coding": [
              {
                "system": "http://snomed.info/sct",
                "code": "1107221000000109",
                "display": "Total bilirubin substance concentration in serum"
              }
            ]
          },
          "subject": {
            "reference": "urn:uuid:ab87a3f8-1d37-44a9-804e-5e962598a6e4",
            "display": "WELSH, Joel"
          },
          "issued": "2022-03-08T14:23:00+00:00",
          "performer": [
            {
              "reference": "Organization/8a6d85b8-9837-4fed-a257-4cf207988338",
              "display": "TD008362 PATH LAB 001"
            }
          ],
          "valueQuantity": {
            "value": 6,
            "unit": "umol/L",
            "system": "http://unitsofmeasure.org",
            "code": "umol/L"
          },
          "specimen": {
            "reference": "urn:uuid:bab0eaec-1ec5-4598-b660-90bb38a1030d"
          },
          "referenceRange": [
            {
              "high": {
                "value": 21
              }
            }
          ],
          "derivedFrom": [
            {
              "reference": "urn:uuid:33a88119-6dbc-4bdf-809a-c1d822b74e90"
            }
          ]
        }
      },
      {
        "fullUrl": "urn:uuid:aa8aa37b-3a69-478f-a2be-947af624d7cb",
        "resource": {
          "resourceType": "Observation",
          "id": "aa8aa37b-3a69-478f-a2be-947af624d7cb",
          "meta": {
            "versionId": "1",
            "lastUpdated": "2023-12-19T09:49:20.671+00:00",
            "source": "#plpDJqc8XDrSmdQh",
            "profile": [
              "https://fhir.hl7.org.uk/StructureDefinition/UKCore-Observation"
            ]
          },
          "identifier": [
            {
              "system": "https://tools.ietf.org/html/rfc4122",
              "value": "b9c64863-06b5-4e98-b226-8ef28059f238"
            }
          ],
          "status": "final",
          "code": {
            "coding": [
              {
                "system": "http://snomed.info/sct",
                "code": "3391000237104",
                "display": "Alkaline phosphatase liver isoenzyme enzyme activity in serum"
              }
            ]
          },
          "subject": {
            "reference": "urn:uuid:ab87a3f8-1d37-44a9-804e-5e962598a6e4",
            "display": "WELSH, Joel"
          },
          "issued": "2022-03-08T14:23:00+00:00",
          "performer": [
            {
              "reference": "Organization/8a6d85b8-9837-4fed-a257-4cf207988338",
              "display": "TD008362 PATH LAB 001"
            }
          ],
          "valueQuantity": {
            "value": 96,
            "unit": "iu/L",
            "system": "http://unitsofmeasure.org",
            "code": "[iU]/L"
          },
          "specimen": {
            "reference": "urn:uuid:bab0eaec-1ec5-4598-b660-90bb38a1030d"
          },
          "referenceRange": [
            {
              "low": {
                "value": 30
              },
              "high": {
                "value": 130
              }
            }
          ],
          "derivedFrom": [
            {
              "reference": "urn:uuid:33a88119-6dbc-4bdf-809a-c1d822b74e90"
            }
          ]
        }
      },
      {
        "fullUrl": "urn:uuid:3f98327b-f215-4bc5-bd52-ed6477a3da4a",
        "resource": {
          "resourceType": "Observation",
          "id": "3f98327b-f215-4bc5-bd52-ed6477a3da4a",
          "meta": {
            "versionId": "1",
            "lastUpdated": "2023-12-19T09:49:20.671+00:00",
            "source": "#plpDJqc8XDrSmdQh",
            "profile": [
              "https://fhir.hl7.org.uk/StructureDefinition/UKCore-Observation"
            ]
          },
          "identifier": [
            {
              "system": "https://tools.ietf.org/html/rfc4122",
              "value": "9f022172-f721-4657-ab23-a28157e783af"
            }
          ],
          "status": "final",
          "code": {
            "coding": [
              {
                "system": "http://snomed.info/sct",
                "code": "1106081000000100",
                "display": "Alanine aminotransferase enzyme activity in serum"
              }
            ]
          },
          "subject": {
            "reference": "urn:uuid:ab87a3f8-1d37-44a9-804e-5e962598a6e4",
            "display": "WELSH, Joel"
          },
          "issued": "2022-03-08T14:23:00+00:00",
          "performer": [
            {
              "reference": "Organization/8a6d85b8-9837-4fed-a257-4cf207988338",
              "display": "TD008362 PATH LAB 001"
            }
          ],
          "valueQuantity": {
            "value": 15,
            "unit": "iu/L",
            "system": "http://unitsofmeasure.org",
            "code": "[iU]/L"
          },
          "specimen": {
            "reference": "urn:uuid:bab0eaec-1ec5-4598-b660-90bb38a1030d"
          },
          "referenceRange": [
            {
              "high": {
                "value": 40
              }
            }
          ],
          "derivedFrom": [
            {
              "reference": "urn:uuid:33a88119-6dbc-4bdf-809a-c1d822b74e90"
            }
          ]
        }
      },
      {
        "fullUrl": "urn:uuid:a5c7f5e2-eb95-469b-b588-f7861c260ccb",
        "resource": {
          "resourceType": "Observation",
          "id": "a5c7f5e2-eb95-469b-b588-f7861c260ccb",
          "meta": {
            "versionId": "1",
            "lastUpdated": "2023-12-19T09:49:20.671+00:00",
            "source": "#plpDJqc8XDrSmdQh",
            "profile": [
              "https://fhir.hl7.org.uk/StructureDefinition/UKCore-Observation"
            ]
          },
          "identifier": [
            {
              "system": "https://tools.ietf.org/html/rfc4122",
              "value": "c949a08a-49f9-4093-9f17-67d23ec92e46"
            }
          ],
          "status": "final",
          "code": {
            "coding": [
              {
                "system": "http://snomed.info/sct",
                "code": "26958001",
                "display": "Hepatic function panel"
              }
            ]
          },
          "subject": {
            "reference": "urn:uuid:ab87a3f8-1d37-44a9-804e-5e962598a6e4",
            "display": "WELSH, Joel"
          },
          "issued": "2022-03-08T14:23:00+00:00",
          "performer": [
            {
              "reference": "Organization/8a6d85b8-9837-4fed-a257-4cf207988338",
              "display": "TD008362 PATH LAB 001"
            }
          ],
          "hasMember": [
            {
              "reference": "urn:uuid:c6989afa-156a-4f7e-ab91-d4249680d8bf"
            },
            {
              "reference": "urn:uuid:f5a0e88f-a76a-4526-8927-579771471c58"
            },
            {
              "reference": "urn:uuid:aa2151a3-3f5b-4f0d-9074-52563aa77c6c"
            },
            {
              "reference": "urn:uuid:3c6b11c8-83b6-4402-90b9-2e1e7400d7cc"
            },
            {
              "reference": "urn:uuid:e6127f03-4a96-45d3-abd8-1adcf0189be4"
            }
          ]
        }
      },
      {
        "fullUrl": "urn:uuid:c6989afa-156a-4f7e-ab91-d4249680d8bf",
        "resource": {
          "resourceType": "Observation",
          "id": "c6989afa-156a-4f7e-ab91-d4249680d8bf",
          "meta": {
            "versionId": "1",
            "lastUpdated": "2023-12-19T09:49:20.671+00:00",
            "source": "#plpDJqc8XDrSmdQh",
            "profile": [
              "https://fhir.hl7.org.uk/StructureDefinition/UKCore-Observation"
            ]
          },
          "identifier": [
            {
              "system": "https://tools.ietf.org/html/rfc4122",
              "value": "ac255464-4557-40ee-8f53-ef3104b10872"
            }
          ],
          "status": "final",
          "code": {
            "coding": [
              {
                "system": "http://snomed.info/sct",
                "code": "1110281000000107",
                "display": "Urea substance concentration in serum"
              }
            ]
          },
          "subject": {
            "reference": "urn:uuid:ab87a3f8-1d37-44a9-804e-5e962598a6e4",
            "display": "WELSH, Joel"
          },
          "issued": "2022-03-08T14:23:00+00:00",
          "performer": [
            {
              "reference": "Organization/8a6d85b8-9837-4fed-a257-4cf207988338",
              "display": "TD008362 PATH LAB 001"
            }
          ],
          "valueQuantity": {
            "value": 3.7,
            "unit": "mmol/L",
            "system": "http://unitsofmeasure.org",
            "code": "mmol/L"
          },
          "specimen": {
            "reference": "urn:uuid:bab0eaec-1ec5-4598-b660-90bb38a1030d"
          },
          "referenceRange": [
            {
              "low": {
                "value": 2.5
              },
              "high": {
                "value": 7.8
              }
            }
          ],
          "derivedFrom": [
            {
              "reference": "urn:uuid:a5c7f5e2-eb95-469b-b588-f7861c260ccb"
            }
          ]
        }
      },
      {
        "fullUrl": "urn:uuid:f5a0e88f-a76a-4526-8927-579771471c58",
        "resource": {
          "resourceType": "Observation",
          "id": "f5a0e88f-a76a-4526-8927-579771471c58",
          "meta": {
            "versionId": "1",
            "lastUpdated": "2023-12-19T09:49:20.671+00:00",
            "source": "#plpDJqc8XDrSmdQh",
            "profile": [
              "https://fhir.hl7.org.uk/StructureDefinition/UKCore-Observation"
            ]
          },
          "identifier": [
            {
              "system": "https://tools.ietf.org/html/rfc4122",
              "value": "b1890fe7-ef3b-4d74-bc2f-665059d0c9d7"
            }
          ],
          "status": "final",
          "code": {
            "coding": [
              {
                "system": "http://snomed.info/sct",
                "code": "1107871000000107",
                "display": "Sodium substance concentration in serum"
              }
            ]
          },
          "subject": {
            "reference": "urn:uuid:ab87a3f8-1d37-44a9-804e-5e962598a6e4",
            "display": "WELSH, Joel"
          },
          "issued": "2022-03-08T14:23:00+00:00",
          "performer": [
            {
              "reference": "Organization/8a6d85b8-9837-4fed-a257-4cf207988338",
              "display": "TD008362 PATH LAB 001"
            }
          ],
          "valueQuantity": {
            "value": 139,
            "unit": "mmol/L",
            "system": "http://unitsofmeasure.org",
            "code": "mmol/L"
          },
          "specimen": {
            "reference": "urn:uuid:bab0eaec-1ec5-4598-b660-90bb38a1030d"
          },
          "referenceRange": [
            {
              "low": {
                "value": 133
              },
              "high": {
                "value": 146
              }
            }
          ],
          "derivedFrom": [
            {
              "reference": "urn:uuid:a5c7f5e2-eb95-469b-b588-f7861c260ccb"
            }
          ]
        }
      },
      {
        "fullUrl": "urn:uuid:aa2151a3-3f5b-4f0d-9074-52563aa77c6c",
        "resource": {
          "resourceType": "Observation",
          "id": "aa2151a3-3f5b-4f0d-9074-52563aa77c6c",
          "meta": {
            "versionId": "1",
            "lastUpdated": "2023-12-19T09:49:20.671+00:00",
            "source": "#plpDJqc8XDrSmdQh",
            "profile": [
              "https://fhir.hl7.org.uk/StructureDefinition/UKCore-Observation"
            ]
          },
          "identifier": [
            {
              "system": "https://tools.ietf.org/html/rfc4122",
              "value": "b88011a3-e10b-4f35-b388-5622c4e8d808"
            }
          ],
          "status": "final",
          "code": {
            "coding": [
              {
                "system": "http://snomed.info/sct",
                "code": "1107751000000106",
                "display": "Potassium substance concentration in plasma"
              }
            ]
          },
          "subject": {
            "reference": "urn:uuid:ab87a3f8-1d37-44a9-804e-5e962598a6e4",
            "display": "WELSH, Joel"
          },
          "issued": "2022-03-08T14:23:00+00:00",
          "performer": [
            {
              "reference": "Organization/8a6d85b8-9837-4fed-a257-4cf207988338",
              "display": "TD008362 PATH LAB 001"
            }
          ],
          "valueQuantity": {
            "value": 4.7,
            "unit": "mmol/L",
            "system": "http://unitsofmeasure.org",
            "code": "mmol/L"
          },
          "specimen": {
            "reference": "urn:uuid:bab0eaec-1ec5-4598-b660-90bb38a1030d"
          },
          "referenceRange": [
            {
              "low": {
                "value": 3.5
              },
              "high": {
                "value": 5.3
              }
            }
          ],
          "derivedFrom": [
            {
              "reference": "urn:uuid:a5c7f5e2-eb95-469b-b588-f7861c260ccb"
            }
          ]
        }
      },
      {
        "fullUrl": "urn:uuid:3c6b11c8-83b6-4402-90b9-2e1e7400d7cc",
        "resource": {
          "resourceType": "Observation",
          "id": "3c6b11c8-83b6-4402-90b9-2e1e7400d7cc",
          "meta": {
            "versionId": "1",
            "lastUpdated": "2023-12-19T09:49:20.671+00:00",
            "source": "#plpDJqc8XDrSmdQh",
            "profile": [
              "https://fhir.hl7.org.uk/StructureDefinition/UKCore-Observation"
            ]
          },
          "identifier": [
            {
              "system": "https://tools.ietf.org/html/rfc4122",
              "value": "86fb479a-ab58-4f99-81de-af848d9af40c"
            }
          ],
          "status": "final",
          "code": {
            "coding": [
              {
                "system": "http://snomed.info/sct",
                "code": "1107001000000108",
                "display": "Creatinine substance concentration in serum"
              }
            ]
          },
          "subject": {
            "reference": "urn:uuid:ab87a3f8-1d37-44a9-804e-5e962598a6e4",
            "display": "WELSH, Joel"
          },
          "issued": "2022-03-08T14:23:00+00:00",
          "performer": [
            {
              "reference": "Organization/8a6d85b8-9837-4fed-a257-4cf207988338",
              "display": "TD008362 PATH LAB 001"
            }
          ],
          "valueQuantity": {
            "value": 73,
            "unit": "umol/L",
            "system": "http://unitsofmeasure.org",
            "code": "umol/L"
          },
          "specimen": {
            "reference": "urn:uuid:bab0eaec-1ec5-4598-b660-90bb38a1030d"
          },
          "referenceRange": [
            {
              "low": {
                "value": 59
              },
              "high": {
                "value": 104
              }
            }
          ],
          "derivedFrom": [
            {
              "reference": "urn:uuid:a5c7f5e2-eb95-469b-b588-f7861c260ccb"
            }
          ]
        }
      },
      {
        "fullUrl": "urn:uuid:e6127f03-4a96-45d3-abd8-1adcf0189be4",
        "resource": {
          "resourceType": "Observation",
          "id": "e6127f03-4a96-45d3-abd8-1adcf0189be4",
          "meta": {
            "versionId": "1",
            "lastUpdated": "2023-12-19T09:49:20.671+00:00",
            "source": "#plpDJqc8XDrSmdQh",
            "profile": [
              "https://fhir.hl7.org.uk/StructureDefinition/UKCore-Observation"
            ]
          },
          "identifier": [
            {
              "system": "https://tools.ietf.org/html/rfc4122",
              "value": "c6d25926-fb74-400b-98b8-47ae7393f127"
            }
          ],
          "status": "final",
          "code": {
            "coding": [
              {
                "system": "http://snomed.info/sct",
                "code": "857971000000104",
                "display": "eGFR (estimated glomerular filtration rate) using CKD-Epi (Chronic Kidney Disease Epidemiology Collaboration) formula"
              }
            ]
          },
          "subject": {
            "reference": "urn:uuid:ab87a3f8-1d37-44a9-804e-5e962598a6e4",
            "display": "WELSH, Joel"
          },
          "issued": "2022-03-08T14:23:00+00:00",
          "performer": [
            {
              "reference": "Organization/8a6d85b8-9837-4fed-a257-4cf207988338",
              "display": "TD008362 PATH LAB 001"
            }
          ],
          "valueQuantity": {
            "value": 100,
            "unit": "mL/min/1.73m2",
            "system": "http://unitsofmeasure.org",
            "code": "mL/min/((173/100).m2)"
          },
          "note": [
            {
              "text": "Calculated eGFR is not valid in children or pregnancy.\r\nLess accurate with acute change in creatinine (AKI).\r\nCaution with high or low muscle mass or amputation.\r\nAvoid blood sampling within 12 hours of eating meat.\r\nEthnicity factor comment removed Dec21 NG203."
            }
          ],
          "specimen": {
            "reference": "urn:uuid:bab0eaec-1ec5-4598-b660-90bb38a1030d"
          },
          "derivedFrom": [
            {
              "reference": "urn:uuid:a5c7f5e2-eb95-469b-b588-f7861c260ccb"
            }
          ]
        }
      }
    ]
  }
  